File: XRD-Raw Data.csv
2theta in degrees,after debinding and sintering,normalized
10,1203.519,52.86849
10.06,1221.15,53.64299
10.12,1229.084,53.99152
10.18,1264.557,55.54979
10.24,1268.313,55.71478
10.3,1247.278,54.79075
10.36,1333.497,58.5782
10.42,1286.352,56.5072
10.48,1401.432,61.56247
10.54,1385.917,60.88092
10.6,1369.485,60.15909
10.66,1435.806,63.07246
10.72,1349.268,59.27099
10.78,1402.115,61.59247
10.84,1478.174,64.93361
10.9,1464.071,64.31409
10.96,1451.693,63.77034
11.02,1548.318,68.01491
11.08,1544.168,67.83261
11.14,1525.484,67.01185
11.2,1559.247,68.495
11.26,1621.346,71.22291
11.32,1594.873,70.05999
11.38,1595.637,70.09355
11.44,1692.536,74.35016
11.5,1657.605,72.8157
11.56,1669.29,73.329
11.62,1723.71,75.71958
11.68,1714.119,75.29826
11.74,1781.229,78.24629
11.8,1710.881,75.15602
11.86,1796.932,78.93609
11.92,1701.993,74.76559
11.98,1782.956,78.32215
12.04,1770.312,77.76672
12.1,1771.119,77.80217
12.16,1802.202,79.16759
12.22,1770.542,77.77683
12.28,1819.132,79.9113
12.34,1819.389,79.92259
12.4,1811.109,79.55886
12.46,1803.861,79.24047
12.52,1835.854,80.64587
12.58,1787.891,78.53894
12.64,1775.445,77.99221
12.7,1798.516,79.00568
12.76,1774.979,77.97174
12.82,1684.968,74.01771
12.88,1848.315,81.19326
12.94,1836.615,80.6793
13,1809.398,79.4837
13.06,1838.846,80.7773
13.12,1822.81,80.07287
13.18,1780.603,78.21879
13.24,1705.292,74.91051
13.3,1822.999,80.08117
13.36,1773.956,77.9268
13.42,1814.611,79.7127
13.48,1727.762,75.89758
13.54,1755.2,77.10288
13.6,1738.34,76.36225
13.66,1743.983,76.61014
13.72,1757.539,77.20563
13.78,1714.628,75.32062
13.84,1745.716,76.68626
13.9,1727.215,75.87355
13.96,1747.844,76.77974
14.02,1713.02,75.24998
14.08,1737.859,76.34112
14.14,1702.123,74.7713
14.2,1681.757,73.87666
14.26,1729.525,75.97502
14.32,1698.314,74.60398
14.38,1674.867,73.57399
14.44,1685.076,74.02245
14.5,1675.733,73.61203
14.56,1623.797,71.33057
14.62,1687.104,74.11154
14.68,1624.913,71.3796
14.74,1591.327,69.90422
14.8,1636.538,71.89026
14.86,1583.723,69.57019
14.92,1550.755,68.12197
14.98,1635.902,71.86233
15.04,1508.469,66.26442
15.1,1569.402,68.9411
15.16,1533.546,67.366
15.22,1593.533,70.00113
15.28,1517.354,66.65472
15.34,1500.631,65.92011
15.4,1511.712,66.40687
15.46,1480.377,65.03038
15.52,1445.618,63.50348
15.58,1476.814,64.87387
15.64,1488.764,65.39881
15.7,1480.779,65.04804
15.76,1479.052,64.97218
15.82,1467.533,64.46617
15.88,1450.387,63.71297
15.94,1413.15,62.07722
16,1440.34,63.27163
16.06,1495.938,65.71395
16.12,1380.045,60.62297
16.18,1405.242,61.72983
16.24,1431.584,62.88699
16.3,1367.808,60.08542
16.36,1346.421,59.14593
16.42,1357.356,59.62628
16.48,1387.786,60.96302
16.54,1277.05,56.09858
16.6,1354.546,59.50285
16.66,1337.372,58.74842
16.72,1378.708,60.56424
16.78,1316.622,57.83691
16.84,1269.865,55.78296
16.9,1282.093,56.32011
16.96,1285.651,56.47641
17.02,1281.642,56.3003
17.08,1234.787,54.24204
17.14,1180.218,51.84492
17.2,1235.505,54.27358
17.26,1228.079,53.94737
17.32,1255.629,55.15759
17.38,1207.382,53.03819
17.44,1204.824,52.92582
17.5,1273.976,55.96355
17.56,1218.138,53.51068
17.62,1266.919,55.65354
17.68,1206.894,53.01675
17.74,1212.918,53.28137
17.8,1203.774,52.87969
17.86,1188.527,52.20992
17.92,1178.755,51.78065
17.98,1131.42,49.70131
18.04,1178.935,51.78856
18.1,1161.249,51.01165
18.16,1158.923,50.90947
18.22,1163.282,51.10095
18.28,1139.129,50.03995
18.34,1151.949,50.60311
18.4,1118.009,49.11219
18.46,1148.344,50.44475
18.52,1143.096,50.21422
18.58,1147.658,50.41462
18.64,1104.551,48.521
18.7,1115.074,48.98326
18.76,1135.416,49.87685
18.82,1071.899,47.08666
18.88,1075.891,47.26202
18.94,1071.783,47.08156
19,1085.703,47.69304
19.06,1067.241,46.88204
19.12,1103.943,48.49429
19.18,1110.443,48.77983
19.24,1012.952,44.49722
19.3,1087.054,47.75239
19.36,1061.609,46.63463
19.42,998.356,43.85604
19.48,1033.278,45.3901
19.54,1012.327,44.46976
19.6,1021.663,44.87988
19.66,1010.437,44.38674
19.72,986.748,43.34612
19.78,979.97,43.04838
19.84,1002.721,44.04779
19.9,999.297,43.89738
19.96,969.111,42.57136
20.02,968.14,42.5287
20.08,980.708,43.08079
20.14,912.911,40.10259
20.2,977.915,42.9581
20.26,948.75,41.67693
20.32,950.93,41.7727
20.38,943.053,41.42668
20.44,979.518,43.02852
20.5,929.871,40.84761
20.56,961.396,42.23245
20.62,951.806,41.81118
20.68,918.093,40.33023
20.74,939.241,41.25922
20.8,912.811,40.0982
20.86,916.141,40.24448
20.92,891.607,39.16674
20.98,964.111,42.35172
21.04,939.548,41.27271
21.1,895.165,39.32304
21.16,946.308,41.56966
21.22,921.748,40.49078
21.28,899.59,39.51742
21.34,897.082,39.40725
21.4,920.407,40.43188
21.46,896.258,39.37105
21.52,934.184,41.03708
21.58,884.379,38.84923
21.64,892.545,39.20795
21.7,884.947,38.87418
21.76,887.537,38.98795
21.82,895.024,39.31685
21.88,862.818,37.90209
21.94,860.434,37.79737
22,851.956,37.42494
22.06,829.409,36.43449
22.12,818.156,35.94017
22.18,818.416,35.95159
22.24,859.911,37.77439
22.3,877.887,38.56405
22.36,817.028,35.89062
22.42,832.099,36.55266
22.48,806.849,35.44347
22.54,808.91,35.53401
22.6,835.979,36.7231
22.66,792.73,34.82325
22.72,769.91,33.82081
22.78,731.435,32.13067
22.84,791.115,34.7523
22.9,789.219,34.66902
22.96,744.221,32.69233
23.02,761.986,33.47272
23.08,723.799,31.79523
23.14,653.069,28.68818
23.2,678.161,29.79043
23.26,703.199,30.89031
23.32,707.208,31.06642
23.38,700.07,30.75286
23.44,688.543,30.24649
23.5,702.336,30.8524
23.56,667.125,29.30564
23.62,646.729,28.40968
23.68,623.672,27.39682
23.74,660.026,28.99379
23.8,680.804,29.90653
23.86,642.617,28.22905
23.92,640.645,28.14242
23.98,631.871,27.75699
24.04,649.793,28.54427
24.1,628.256,27.59819
24.16,640.507,28.13636
24.22,622.272,27.33533
24.28,600.075,26.36025
24.34,615.483,27.0371
24.4,621.726,27.31134
24.46,613.102,26.9325
24.52,626.674,27.5287
24.58,574.022,25.21579
24.64,607.363,26.6804
24.7,582.272,25.57819
24.76,568.907,24.99109
24.82,551.568,24.22942
24.88,589.081,25.8773
24.94,546.276,23.99695
25,570.904,25.07882
25.06,550.364,24.17653
25.12,544,23.89697
25.18,575.648,25.28721
25.24,585.576,25.72333
25.3,522.027,22.93174
25.36,545.245,23.95166
25.42,544.763,23.93049
25.48,569.92,25.03559
25.54,591.321,25.9757
25.6,761.632,33.45717
25.66,1570.321,68.98147
25.72,1738.185,76.35544
25.78,1012.632,44.48316
25.84,601.138,26.40695
25.9,496.903,21.82808
25.96,524.278,23.03062
26.02,443.294,19.47313
26.08,471.033,20.69166
26.14,497.254,21.8435
26.2,489.649,21.50943
26.26,470.177,20.65406
26.32,449.445,19.74334
26.38,407.462,17.8991
26.44,448.538,19.70349
26.5,409.973,18.0094
26.56,415.527,18.25338
26.62,455.423,20.00594
26.68,432.381,18.99374
26.74,413.494,18.16407
26.8,407.591,17.90476
26.86,405.789,17.8256
26.92,378.632,16.63264
26.98,389.339,17.10298
27.04,375.576,16.4984
27.1,398.023,17.48446
27.16,394.523,17.33071
27.22,373.666,16.4145
27.28,340.994,14.97927
27.34,335.567,14.74087
27.4,363.056,15.94842
27.46,337.945,14.84534
27.52,309.472,13.59457
27.58,320.385,14.07395
27.64,355.399,15.61206
27.7,325.811,14.31231
27.76,294.897,12.95431
27.82,296.859,13.0405
27.88,294.269,12.92672
27.94,296.56,13.02736
28,318.204,13.97815
28.06,317.284,13.93773
28.12,296.578,13.02815
28.18,289.576,12.72057
28.24,301.976,13.26528
28.3,281.69,12.37415
28.36,301.2,13.23119
28.42,288.147,12.6578
28.48,258.923,11.37404
28.54,255.621,11.22899
28.6,261.215,11.47472
28.66,275.384,12.09714
28.72,283.276,12.44382
28.78,219.856,9.65789
28.84,266.469,11.70552
28.9,236.505,10.38925
28.96,225.472,9.90459
29.02,226.815,9.96359
29.08,244.257,10.72978
29.14,231.734,10.17967
29.2,225.823,9.92001
29.26,233.061,10.23796
29.32,252.399,11.08745
29.38,198.902,8.73742
29.44,202.232,8.8837
29.5,217.188,9.54069
29.56,203.454,8.93738
29.62,217.765,9.56604
29.68,190.124,8.35182
29.74,176.447,7.75101
29.8,194.881,8.56078
29.86,200.833,8.82224
29.92,177.389,7.79239
29.98,180.392,7.92431
30.04,198.791,8.73254
30.1,198.517,8.72051
30.16,182.745,8.02767
30.22,192.868,8.47236
30.28,198.193,8.70627
30.34,204.711,8.9926
30.4,167.159,7.343
30.46,175.493,7.7091
30.52,171.864,7.54969
30.58,159.406,7.00243
30.64,167.538,7.35965
30.7,154.578,6.79034
30.76,152.465,6.69752
30.82,140.752,6.18299
30.88,142.471,6.2585
30.94,150.264,6.60084
31,153.718,6.75256
31.06,146.86,6.4513
31.12,146.275,6.42561
31.18,118.293,5.19641
31.24,145.68,6.39947
31.3,142.863,6.27572
31.36,134.246,5.89719
31.42,151.531,6.65649
31.48,107.076,4.70366
31.54,119.075,5.23076
31.6,144.448,6.34535
31.66,125.821,5.5271
31.72,109.099,4.79253
31.78,142.138,6.24387
31.84,104.938,4.60974
31.9,119.254,5.23862
31.96,125.309,5.50461
32.02,106.884,4.69523
32.08,113.401,4.98151
32.14,113.552,4.98814
32.2,115.5,5.07371
32.26,96.529,4.24035
32.32,104.746,4.60131
32.38,114.039,5.00953
32.44,96.566,4.24198
32.5,103.598,4.55088
32.56,107.033,4.70177
32.62,100.264,4.40442
32.68,81.296,3.57119
32.74,99.811,4.38452
32.8,93.031,4.08669
32.86,86.695,3.80836
32.92,93.788,4.11994
32.98,93.349,4.10066
33.04,103.424,4.54324
33.1,79.308,3.48386
33.16,112.469,4.94057
33.22,91.604,4.024
33.28,84.432,3.70895
33.34,97.346,4.27624
33.4,82.206,3.61117
33.46,98.781,4.33928
33.52,81.402,3.57585
33.58,84.711,3.72121
33.64,88.451,3.8855
33.7,92.977,4.08432
33.76,87.565,3.84658
33.82,77.978,3.42544
33.88,74.553,3.27498
33.94,72.122,3.16819
34,95.117,4.17832
34.06,84.579,3.71541
34.12,100.175,4.40051
34.18,102.259,4.49206
34.24,90.462,3.97384
34.3,97.507,4.28331
34.36,80.951,3.55604
34.42,93.861,4.12315
34.48,85.014,3.73452
34.54,86.39,3.79496
34.6,76.964,3.38089
34.66,88.196,3.8743
34.72,103.067,4.52755
34.78,94.678,4.15904
34.84,103.276,4.53673
34.9,99.841,4.38584
34.96,111.95,4.91777
35.02,147.716,6.48891
35.08,191.975,8.43313
35.14,301.124,13.22785
35.2,704.688,30.95572
35.26,2276.439,100
35.32,1226.411,53.8741
35.38,957.722,42.07106
35.44,227.35,9.98709
35.5,147.616,6.48451
35.56,109.963,4.83048
35.62,102.55,4.50484
35.68,92.124,4.04685
35.74,67.112,2.94811
35.8,72.318,3.1768
35.86,87.848,3.85901
35.92,78.001,3.42645
35.98,84.766,3.72362
36.04,69.257,3.04234
36.1,63.753,2.80056
36.16,62.268,2.73532
36.22,75.252,3.30569
36.28,81.52,3.58103
36.34,70.576,3.10028
36.4,75.008,3.29497
36.46,74.866,3.28873
36.52,89.702,3.94045
36.58,83.903,3.68571
36.64,71.47,3.13955
36.7,68.517,3.00983
36.76,63.321,2.78158
36.82,79.945,3.51184
36.88,80.311,3.52792
36.94,64.745,2.84414
37,77.488,3.40391
37.06,58.78,2.5821
37.12,71.91,3.15888
37.18,70.784,3.10942
37.24,68.766,3.02077
37.3,69.603,3.05754
37.36,75.796,3.32959
37.42,67.111,2.94807
37.48,80.818,3.55019
37.54,80.374,3.53069
37.6,89.75,3.94256
37.66,83.85,3.68338
37.72,111.179,4.8839
37.78,178.654,7.84796
37.84,438.604,19.26711
37.9,883.53,38.81193
37.96,494.191,21.70895
38.02,331.027,14.54144
38.08,117.518,5.16236
38.14,86.881,3.81653
38.2,81.285,3.57071
38.26,84.245,3.70074
38.32,69.817,3.06694
38.38,70.963,3.11728
38.44,75.349,3.30995
38.5,68.999,3.03101
38.56,71.412,3.137
38.62,88.768,3.89942
38.68,70.694,3.10546
38.74,58.652,2.57648
38.8,59.818,2.6277
38.86,61.856,2.71723
38.92,76.033,3.34
38.98,67.301,2.95642
39.04,66.392,2.91648
39.1,86.312,3.79154
39.16,71.438,3.13815
39.22,72.039,3.16455
39.28,62.725,2.7554
39.34,62.493,2.74521
39.4,60.925,2.67633
39.46,67.715,2.9746
39.52,63.966,2.80991
39.58,66.222,2.90902
39.64,45.998,2.02061
39.7,72.676,3.19253
39.76,56.368,2.47615
39.82,64.074,2.81466
39.88,72.739,3.1953
39.94,56.356,2.47562
40,72.452,3.18269
40.06,71.865,3.1569
40.12,71.646,3.14728
40.18,63.163,2.77464
40.24,69.112,3.03597
40.3,70.284,3.08745
40.36,67.51,2.9656
40.42,66.042,2.90111
40.48,66.339,2.91416
40.54,69.199,3.03979
40.6,65.403,2.87304
40.66,52.464,2.30465
40.72,68.507,3.00939
40.78,70.149,3.08152
40.84,73.603,3.23325
40.9,72.318,3.1768
40.96,58.695,2.57837
41.02,49.678,2.18227
41.08,68.07,2.9902
41.14,64.001,2.81145
41.2,55.364,2.43204
41.26,59.941,2.6331
41.32,60.013,2.63627
41.38,62.946,2.76511
41.44,65.068,2.85832
41.5,55.119,2.42128
41.56,59.203,2.60068
41.62,67.512,2.96568
41.68,57.108,2.50865
41.74,77.048,3.38458
41.8,67.633,2.971
41.86,71.773,3.15286
41.92,66.151,2.9059
41.98,59.627,2.61931
42.04,48.573,2.13373
42.1,70.377,3.09154
42.16,83.473,3.66682
42.22,52.863,2.32218
42.28,50.777,2.23055
42.34,63.138,2.77354
42.4,70.379,3.09163
42.46,69.814,3.06681
42.52,78.697,3.45702
42.58,71.649,3.14742
42.64,66.237,2.90968
42.7,80.118,3.51944
42.76,70.115,3.08003
42.82,73.735,3.23905
42.88,74.844,3.28777
42.94,84.587,3.71576
43,64.833,2.848
43.06,89.232,3.91981
43.12,80.311,3.52792
43.18,91.01,3.99791
43.24,139.984,6.14925
43.3,209.995,9.22471
43.36,350.542,15.3987
43.42,1161.639,51.02878
43.48,2072.364,91.03534
43.54,987.612,43.38407
43.6,922.993,40.54547
43.66,284.901,12.5152
43.72,128.25,5.6338
43.78,95.466,4.19366
43.84,75.327,3.30898
43.9,77.67,3.41191
43.96,69.567,3.05596
44.02,79.527,3.49348
44.08,60.671,2.66517
44.14,70.093,3.07906
44.2,59.096,2.59598
44.26,53.094,2.33233
44.32,67.144,2.94952
44.38,55.542,2.43986
44.44,46.673,2.05026
44.5,69.492,3.05266
44.56,59.187,2.59998
44.62,59.655,2.62054
44.68,66.352,2.91473
44.74,51.027,2.24153
44.8,54.813,2.40784
44.86,66.129,2.90493
44.92,50.149,2.20296
44.98,61.249,2.69056
45.04,73.32,3.22082
45.1,59.227,2.60174
45.16,52.974,2.32706
45.22,66.354,2.91482
45.28,57.722,2.53563
45.34,69.109,3.03584
45.4,64.884,2.85024
45.46,56.541,2.48375
45.52,55.959,2.45818
45.58,57.289,2.51661
45.64,42.343,1.86005
45.7,47.932,2.10557
45.76,59.374,2.6082
45.82,43.883,1.9277
45.88,54.883,2.41091
45.94,49.971,2.19514
46,53.543,2.35205
46.06,53.106,2.33285
46.12,58.191,2.55623
46.18,56.79,2.49469
46.24,61.46,2.69983
46.3,78.263,3.43796
46.36,58.825,2.58408
46.42,64.225,2.82129
46.48,58.459,2.568
46.54,51.577,2.26569
46.6,58.391,2.56501
46.66,56.865,2.49798
46.72,50.898,2.23586
46.78,60.078,2.63912
46.84,58.389,2.56493
46.9,45.989,2.02022
46.96,52.689,2.31454
47.02,70.554,3.09931
47.08,55.288,2.42871
47.14,52.386,2.30123
47.2,70.521,3.09786
47.26,49.481,2.17361
47.32,57.421,2.5224
47.38,58.295,2.5608
47.44,37.361,1.6412
47.5,46.272,2.03265
47.56,57.717,2.53541
47.62,54.132,2.37792
47.68,48.517,2.13127
47.74,48.485,2.12986
47.8,45.329,1.99122
47.86,47.133,2.07047
47.92,48.459,2.12872
47.98,46.876,2.05918
48.04,56.853,2.49745
48.1,45.237,1.98718
48.16,45.433,1.99579
48.22,39.483,1.73442
48.28,45.169,1.9842
48.34,42.877,1.88351
48.4,41.15,1.80765
48.46,53.658,2.3571
48.52,48.326,2.12288
48.58,38.593,1.69532
48.64,39.451,1.73301
48.7,55.586,2.4418
48.76,51.466,2.26081
48.82,53.673,2.35776
48.88,41.859,1.83879
48.94,52.414,2.30246
49,41.553,1.82535
49.06,60.639,2.66377
49.12,56.431,2.47892
49.18,47.245,2.07539
49.24,59.718,2.62331
49.3,52.592,2.31027
49.36,52.69,2.31458
49.42,43.512,1.91141
49.48,47.022,2.06559
49.54,63.661,2.79652
49.6,52.524,2.30729
49.66,51.004,2.24052
49.72,51.415,2.25857
49.78,40.286,1.76969
49.84,43.404,1.90666
49.9,50.217,2.20595
49.96,61.522,2.70255
50.02,55.947,2.45765
50.08,55.128,2.42168
50.14,44.907,1.97269
50.2,55.064,2.41887
50.26,54.639,2.4002
50.32,51.823,2.27649
50.38,49.988,2.19589
50.44,45.882,2.01552
50.5,41.344,1.81617
50.56,44.323,1.94703
50.62,57.016,2.50461
50.68,38.048,1.67138
50.74,47.7,2.09538
50.8,59.977,2.63469
50.86,34.498,1.51544
50.92,48.443,2.12802
50.98,61.068,2.68261
51.04,47.429,2.08347
51.1,55.868,2.45418
51.16,43.349,1.90425
51.22,57.487,2.5253
51.28,51.621,2.26762
51.34,39.248,1.7241
51.4,49.227,2.16246
51.46,52.856,2.32187
51.52,36.979,1.62442
51.58,47.391,2.0818
51.64,65.445,2.87488
51.7,52.679,2.3141
51.76,49.238,2.16294
51.82,43.611,1.91576
51.88,55.744,2.44874
51.94,50.621,2.22369
52,49.607,2.17915
52.06,57.166,2.5112
52.12,67.179,2.95106
52.18,48.817,2.14445
52.24,58.323,2.56203
52.3,51.722,2.27206
52.36,50.883,2.2352
52.42,77.13,3.38819
52.48,85.12,3.73917
52.54,154.641,6.79311
52.6,314.804,13.82879
52.66,955.469,41.97209
52.72,371.918,16.33771
52.78,465.744,20.45932
52.84,322.67,14.17433
52.9,103.177,4.53239
52.96,68.056,2.98958
53.02,61.448,2.6993
53.08,65.334,2.87001
53.14,52.322,2.29841
53.2,50.528,2.21961
53.26,53.236,2.33856
53.32,42.842,1.88197
53.38,42.118,1.85017
53.44,45.109,1.98156
53.5,50.961,2.23863
53.56,49.287,2.16509
53.62,54.987,2.41548
53.68,45.383,1.9936
53.74,53.76,2.36158
53.8,41.305,1.81446
53.86,52.899,2.32376
53.92,45.269,1.98859
53.98,55.007,2.41636
54.04,43.024,1.88997
54.1,46.027,2.02189
54.16,44.032,1.93425
54.22,48.496,2.13034
54.28,33.617,1.47674
54.34,42.422,1.86352
54.4,55.614,2.44303
54.46,36.908,1.6213
54.52,41.012,1.80159
54.58,40.655,1.7859
54.64,36.058,1.58397
54.7,48.384,2.12542
54.76,49.209,2.16167
54.82,40.729,1.78915
54.88,47.996,2.10838
54.94,41.946,1.84261
55,44.381,1.94958
55.06,36.922,1.62192
55.12,47.088,2.06849
55.18,50.158,2.20335
55.24,36.243,1.59209
55.3,43.644,1.9172
55.36,39.314,1.727
55.42,36.616,1.60848
55.48,41.631,1.82878
55.54,32.047,1.40777
55.6,43.015,1.88957
55.66,34.324,1.50779
55.72,39.513,1.73574
55.78,47.25,2.07561
55.84,42.643,1.87323
55.9,47.03,2.06595
55.96,47.127,2.07021
56.02,30.346,1.33305
56.08,41.734,1.8333
56.14,45.377,1.99333
56.2,43.897,1.92832
56.26,53.355,2.34379
56.32,39.51,1.73561
56.38,47.351,2.08005
56.44,37.449,1.64507
56.5,36.919,1.62179
56.56,39.632,1.74096
56.62,50.115,2.20146
56.68,52.556,2.30869
56.74,40.707,1.78819
56.8,63.493,2.78914
56.86,47.418,2.08299
56.92,42.529,1.86822
56.98,57.816,2.53976
57.04,46.478,2.0417
57.1,69.853,3.06852
57.16,61.455,2.69961
57.22,63.276,2.7796
57.28,71.172,3.12646
57.34,93.988,4.12873
57.4,106.572,4.68152
57.46,165.049,7.25032
57.52,420.064,18.45268
57.58,1319.671,57.97085
57.64,1180.336,51.8501
57.7,526.79,23.14097
57.76,961.064,42.21787
57.82,362.013,15.9026
57.88,152.196,6.68571
57.94,90.034,3.95504
58,78.097,3.43067
58.06,58.673,2.5774
58.12,79.981,3.51343
58.18,68.187,2.99534
58.24,50.503,2.21851
58.3,47.578,2.09002
58.36,35.614,1.56446
58.42,36.671,1.61089
58.48,43.195,1.89748
58.54,35.473,1.55827
58.6,45.744,2.00945
58.66,38.474,1.6901
58.72,50.669,2.2258
58.78,44.572,1.95797
58.84,42.024,1.84604
58.9,29.936,1.31504
58.96,41.711,1.83229
59.02,42.721,1.87666
59.08,49.427,2.17124
59.14,37.427,1.6441
59.2,54.017,2.37287
59.26,37.257,1.63664
59.32,40.824,1.79333
59.38,46.844,2.05778
59.44,50.625,2.22387
59.5,47.218,2.0742
59.56,52.925,2.3249
59.62,47.158,2.07157
59.68,43.104,1.89348
59.74,52.428,2.30307
59.8,67.651,2.97179
59.86,82.539,3.62579
59.92,46.024,2.02175
59.98,69.352,3.04651
60.04,54.523,2.3951
60.1,38.805,1.70464
60.16,51.263,2.25189
60.22,32.594,1.4318
60.28,40.196,1.76574
60.34,28.853,1.26746
60.4,46.682,2.05066
60.46,41.238,1.81151
60.52,39.479,1.73424
60.58,38.802,1.7045
60.64,45.795,2.01169
60.7,38.291,1.68206
60.76,35.851,1.57487
60.82,32.19,1.41405
60.88,41.455,1.82105
60.94,44.799,1.96794
61,45.644,2.00506
61.06,45.78,2.01104
61.12,44.189,1.94115
61.18,70.911,3.115
61.24,102.51,4.50309
61.3,74.078,3.25412
61.36,121.277,5.32749
61.42,169.99,7.46736
61.48,79.137,3.47635
61.54,74.137,3.25671
61.6,92.227,4.05137
61.66,59.829,2.62818
61.72,49.535,2.17599
61.78,34.8,1.5287
61.84,34.376,1.51008
61.9,40.905,1.79689
61.96,47.161,2.0717
62.02,30.929,1.35866
62.08,32.938,1.44691
62.14,48.326,2.12288
62.2,36.532,1.60479
62.26,25.746,1.13098
62.32,39.943,1.75463
62.38,52.374,2.3007
62.44,33.073,1.45284
62.5,45.566,2.00164
62.56,34.983,1.53674
62.62,37.488,1.64678
62.68,27.577,1.21141
62.74,32.807,1.44115
62.8,40.265,1.76877
62.86,33.721,1.4813
62.92,37.774,1.65935
62.98,52.61,2.31107
63.04,36.265,1.59306
63.1,33.465,1.47006
63.16,31.685,1.39187
63.22,33.789,1.48429
63.28,31.934,1.4028
63.34,33.463,1.46997
63.4,42.258,1.85632
63.46,36.412,1.59952
63.52,32.379,1.42235
63.58,30.364,1.33384
63.64,36.395,1.59877
63.7,26.78,1.1764
63.76,31.036,1.36336
63.82,28.681,1.25991
63.88,29.751,1.30691
63.94,32.44,1.42503
64,41.673,1.83062
64.06,32.271,1.41761
64.12,29.422,1.29246
64.18,35.08,1.541
64.24,43.867,1.927
64.3,36.517,1.60413
64.36,29.249,1.28486
64.42,32.406,1.42354
64.48,28.457,1.25007
64.54,26.991,1.18567
64.6,30.762,1.35132
64.66,33.363,1.46558
64.72,41.122,1.80642
64.78,33.094,1.45376
64.84,40.399,1.77466
64.9,46.72,2.05233
64.96,35.077,1.54087
65.02,32.011,1.40619
65.08,46.598,2.04697
65.14,44.185,1.94097
65.2,30.235,1.32817
65.26,35.599,1.5638
65.32,28.766,1.26364
65.38,29.185,1.28205
65.44,33.493,1.47129
65.5,31.705,1.39275
65.56,40.034,1.75862
65.62,43.705,1.91988
65.68,40.824,1.79333
65.74,35.106,1.54215
65.8,18.807,0.82616
65.86,32.767,1.4394
65.92,26.973,1.18488
65.98,39.567,1.73811
66.04,38.57,1.69431
66.1,40.954,1.79904
66.16,41.707,1.83212
66.22,45.405,1.99456
66.28,39.018,1.71399
66.34,52.227,2.29424
66.4,54.545,2.39607
66.46,68.42,3.00557
66.52,128.649,5.65133
66.58,361.076,15.86144
66.64,518.869,22.79301
66.7,193.488,8.49959
66.76,214.076,9.40399
66.82,316.664,13.9105
66.88,115.984,5.09498
66.94,70.971,3.11763
67,47.089,2.06854
67.06,48.863,2.14647
67.12,42.783,1.87938
67.18,38.124,1.67472
67.24,36.662,1.6105
67.3,36.744,1.6141
67.36,22.062,0.96915
67.42,36.329,1.59587
67.48,38.057,1.67178
67.54,35.582,1.56306
67.6,32.919,1.44607
67.66,52.412,2.30237
67.72,39.751,1.74619
67.78,34.126,1.4991
67.84,41.822,1.83717
67.9,49.477,2.17344
67.96,60.579,2.66113
68.02,46.3,2.03388
68.08,52.305,2.29767
68.14,98.801,4.34016
68.2,159.982,7.02773
68.26,420.333,18.4645
68.32,866.843,38.0789
68.38,288.781,12.68565
68.44,245.203,10.77134
68.5,471.847,20.72742
68.56,194.588,8.54791
68.62,67.717,2.97469
68.68,55.656,2.44487
68.74,49.574,2.1777
68.8,43.733,1.92111
68.86,53.132,2.334
68.92,37.112,1.63027
68.98,34.847,1.53077
69.04,39.876,1.75168
69.1,43.556,1.91334
69.16,50.253,2.20753
69.22,30.195,1.32641
69.28,45.439,1.99606
69.34,36.678,1.6112
69.4,31.589,1.38765
69.46,33.194,1.45815
69.52,31.149,1.36832
69.58,38.782,1.70363
69.64,31.116,1.36687
69.7,24.766,1.08793
69.76,32.917,1.44599
69.82,21.788,0.95711
69.88,34.294,1.50648
69.94,39.587,1.73899
70,35.51,1.55989
70.06,23.667,1.03965
70.12,37.146,1.63176
70.18,29.435,1.29303
70.24,24.028,1.05551
70.3,25.911,1.13823
70.36,32.369,1.42191
70.42,23.073,1.01356
70.48,35.008,1.53784
70.54,56.163,2.46714
70.6,37.195,1.63391
70.66,44.657,1.9617
70.72,44.427,1.9516
70.78,27.106,1.19072
70.84,38.524,1.69229
70.9,22.584,0.99208
70.96,30.646,1.34623
71.02,26.62,1.16937
71.08,24.104,1.05885
71.14,36.299,1.59455
71.2,28.597,1.25622
71.26,38.41,1.68728
71.32,21.692,0.95289
71.38,29.161,1.28099
71.44,32.75,1.43865
71.5,28.494,1.25169
71.56,38.819,1.70525
71.62,31.71,1.39297
71.68,26.889,1.18119
71.74,34.399,1.51109
71.8,24.597,1.0805
71.86,25.006,1.09847
71.92,41.678,1.83084
71.98,20.921,0.91902
72.04,26.005,1.14235
72.1,32.641,1.43386
72.16,30.587,1.34363
72.22,41.638,1.82908
72.28,37.58,1.65082
72.34,25.048,1.10032
72.4,30.973,1.36059
72.46,30.395,1.3352
72.52,25.548,1.12228
72.58,33.38,1.46633
72.64,27.499,1.20798
72.7,29.877,1.31244
72.76,36.485,1.60272
72.82,40.875,1.79557
72.88,38.189,1.67758
72.94,35.096,1.54171
73,31.63,1.38945
73.06,29.786,1.30845
73.12,33.636,1.47757
73.18,28.818,1.26592
73.24,35.085,1.54122
73.3,31.604,1.38831
73.36,42.345,1.86014
73.42,36.188,1.58968
73.48,27.498,1.20794
73.54,29.503,1.29602
73.6,35.731,1.5696
73.66,37.181,1.6333
73.72,28.438,1.24923
73.78,35.92,1.5779
73.84,36.636,1.60936
73.9,37.47,1.64599
73.96,33.951,1.49141
74.02,33.305,1.46303
74.08,29.131,1.27967
74.14,32.404,1.42345
74.2,37.802,1.66058
74.26,34.645,1.52189
74.32,33.767,1.48333
74.38,44.745,1.96557
74.44,36.822,1.61753
74.5,34.223,1.50336
74.56,42.661,1.87402
74.62,40.673,1.78669
74.68,39.202,1.72208
74.74,36.151,1.58805
74.8,29.403,1.29162
74.86,39.112,1.71812
74.92,41.191,1.80945
74.98,35.625,1.56494
75.04,44.531,1.95617
75.1,31.74,1.39428
75.16,32.784,1.44014
75.22,41.821,1.83712
75.28,43.342,1.90394
75.34,35.157,1.54439
75.4,24.855,1.09184
75.46,36.407,1.5993
75.52,31.63,1.38945
75.58,41.399,1.81859
75.64,29.765,1.30752
75.7,34.658,1.52247
75.76,43.171,1.89643
75.82,41.364,1.81705
75.88,33.132,1.45543
75.94,39.32,1.72726
76,43.228,1.89893
76.06,34.932,1.5345
76.12,36.204,1.59038
76.18,30.709,1.34899
76.24,42.419,1.86339
76.3,38.05,1.67147
76.36,28.864,1.26795
76.42,35.028,1.53872
76.48,49.962,2.19474
76.54,45.682,2.00673
76.6,43.513,1.91145
76.66,38.919,1.70964
76.72,41.536,1.8246
76.78,46.952,2.06252
76.84,48.106,2.11321
76.9,112.735,4.95225
76.96,233.638,10.26331
77.02,153.456,6.74105
77.08,72.863,3.20074
77.14,107.06,4.70296
77.2,175.006,7.68771
77.26,100.27,4.40469
77.32,138.78,6.09636
77.38,109.26,4.7996
77.44,58.902,2.58746
77.5,63.287,2.78009
77.56,81.217,3.56772
77.62,52.859,2.322
77.68,55.868,2.45418
77.74,31.931,1.40267
77.8,27.861,1.22389
77.86,32.965,1.4481
77.92,37.877,1.66387
77.98,28.061,1.23267
78.04,32.013,1.40628
78.1,38.821,1.70534
78.16,36.204,1.59038
78.22,32.809,1.44124
78.28,27.619,1.21325
78.34,30.813,1.35356
78.4,41.446,1.82065
78.46,37.565,1.65017
78.52,25.296,1.11121
78.58,40.099,1.76148
78.64,37.304,1.6387
78.7,34.27,1.50542
78.76,29.064,1.27673
78.82,53.297,2.34124
78.88,36.826,1.6177
78.94,28.802,1.26522
79,32.972,1.4484
79.06,29.544,1.29782
79.12,41.412,1.81916
79.18,35.502,1.55954
79.24,30.179,1.32571
79.3,38.296,1.68228
79.36,36.959,1.62354
79.42,26.131,1.14789
79.48,32.497,1.42754
79.54,35.537,1.56108
79.6,44.275,1.94492
79.66,36.557,1.60589
79.72,42.289,1.85768
79.78,40.263,1.76868
79.84,46.617,2.0478
79.9,34.445,1.51311
79.96,23.151,1.01698
80.02,37.407,1.64322
80.08,36.66,1.61041
80.14,45.636,2.00471
80.2,42.142,1.85122
80.26,27.284,1.19854
80.32,38.52,1.69212
80.38,46.2,2.02949
80.44,40.693,1.78757
80.5,51.419,2.25875
80.56,47.818,2.10056
80.62,48.668,2.1379
80.68,58.075,2.55113
80.74,82.047,3.60418
80.8,90.591,3.9795
80.86,59.229,2.60183
80.92,37.797,1.66036
80.98,59.424,2.61039
81.04,72.263,3.17439
81.1,47.495,2.08637
81.16,45.509,1.99913
81.22,41.619,1.82825
81.28,44.283,1.94528
81.34,40.111,1.76201
81.4,44.493,1.9545
81.46,34.252,1.50463
81.52,30.003,1.31798
81.58,36.686,1.61155
81.64,36.817,1.61731
81.7,50.048,2.19852
81.76,45.451,1.99658
81.82,49.569,2.17748
81.88,39.16,1.72023
81.94,39.775,1.74725
82,37.54,1.64907
82.06,40.761,1.79056
82.12,35.001,1.53753
82.18,34.936,1.53468
82.24,30.398,1.33533
82.3,34.414,1.51175
82.36,30.971,1.3605
82.42,44.304,1.9462
82.48,30.453,1.33775
82.54,34.002,1.49365
82.6,33.796,1.4846
82.66,35.549,1.56161
82.72,35.245,1.54825
82.78,39.702,1.74404
82.84,50.782,2.23076
82.9,26.906,1.18193
82.96,51.687,2.27052
83.02,36.364,1.59741
83.08,43.768,1.92265
83.14,33.12,1.4549
83.2,32.88,1.44436
83.26,44.11,1.93768
83.32,46.135,2.02663
83.38,36.36,1.59723
83.44,33.602,1.47608
83.5,39.944,1.75467
83.56,40.096,1.76135
83.62,32.104,1.41027
83.68,41.197,1.80971
83.74,34.07,1.49664
83.8,38.441,1.68865
83.86,33.809,1.48517
83.92,38.889,1.70833
83.98,47.175,2.07232
84.04,40.744,1.78981
84.1,31.71,1.39297
84.16,35.582,1.56306
84.22,35.41,1.5555
84.28,51.064,2.24315
84.34,54.452,2.39198
84.4,51.998,2.28418
84.46,90.388,3.97059
84.52,67.885,2.98207
84.58,44.262,1.94435
84.64,47.062,2.06735
84.7,56.427,2.47874
84.76,55.735,2.44834
84.82,46.835,2.05738
84.88,35.756,1.5707
84.94,40.957,1.79917
85,32.315,1.41954
85.06,34.161,1.50063
85.12,37.706,1.65636
85.18,32.883,1.44449
85.24,39.086,1.71698
85.3,28.435,1.2491
85.36,37.468,1.6459
85.42,35.332,1.55207
85.48,35.018,1.53828
85.54,31.295,1.37473
85.6,31.332,1.37636
85.66,34.874,1.53195
85.72,28.132,1.23579
85.78,37.117,1.63049
85.84,45.477,1.99773
85.9,37.051,1.62759
85.96,37.642,1.65355
86.02,29.58,1.2994
86.08,35.385,1.5544
86.14,39.982,1.75634
86.2,36.394,1.59873
86.26,37.457,1.64542
86.32,52.152,2.29095
86.38,52.778,2.31845
86.44,79.111,3.47521
86.5,60.661,2.66473
86.56,65.169,2.86276
86.62,67.905,2.98295
86.68,57.836,2.54063
86.74,61.989,2.72307
86.8,47.71,2.09582
86.86,58.304,2.56119
86.92,50.556,2.22084
86.98,41.847,1.83827
87.04,42.089,1.8489
87.1,37.546,1.64933
87.16,40.113,1.76209
87.22,34.862,1.53143
87.28,34.316,1.50744
87.34,37.612,1.65223
87.4,32.872,1.44401
87.46,41.002,1.80115
87.52,35.127,1.54307
87.58,38.571,1.69436
87.64,40.56,1.78173
87.7,53.768,2.36193
87.76,38.213,1.67863
87.82,46.843,2.05773
87.88,40.503,1.77923
87.94,42.143,1.85127
88,38.839,1.70613
88.06,40.143,1.76341
88.12,42.068,1.84797
88.18,41.934,1.84209
88.24,34.546,1.51755
88.3,34.026,1.4947
88.36,40.803,1.7924
88.42,45.232,1.98696
88.48,43.46,1.90912
88.54,45.185,1.9849
88.6,48.266,2.12024
88.66,53.124,2.33364
88.72,45.229,1.98683
88.78,42.729,1.87701
88.84,57.43,2.5228
88.9,45.097,1.98103
88.96,47.403,2.08233
89.02,68.127,2.9927
89.08,121.147,5.32178
89.14,100.717,4.42432
89.2,45.612,2.00366
89.26,61.464,2.70001
89.32,75.937,3.33578
89.38,85.974,3.77669
89.44,66.182,2.90726
89.5,40.537,1.78072
89.56,56.903,2.49965
89.62,44.953,1.97471
89.68,39.846,1.75037
89.74,44.108,1.93759
89.8,37.552,1.64959
89.86,54.072,2.37529
89.92,47.896,2.10399
89.96,48.964,2.1509